Folder: TCCbuilderApp/src/lahde/tccbuilder/public/TCCMaterialLibrary/700008-Ethanol/data

Note: src/lahde/tccbuilder/public/TCCMaterialLibrary/700008-Ethanol/data/Density.txt
Data from Coolprop (www.coolprop.org)
Temperature(K)	Density(kg/m^3)

160	907.958
170	897.622
180	887.933
190	878.612
200	869.528
210	860.612
220	851.827
230	843.149
240	834.555
250	826.026
260	817.541
270	809.079
280	800.612
290	792.111
300	783.539
310	774.855
320	766.013
330	756.958
340	747.631
350	737.964
350.1	737.865
350.2	737.766
350.3	737.668
350.4	737.569
350.5	737.47
350.6	737.371
350.7	737.272
350.8	737.173
350.9	737.074
351	736.975
351.1	736.876
351.2	736.777
351.3	1.62966
351.4	1.62912
351.5	1.62858
351.6	1.62804
351.7	1.62749
351.8	1.62695
351.9	1.62641
352	1.62587
352.1	1.62533
352.2	1.62479
352.3	1.62425
352.4	1.62372
352.5	1.62318
352.6	1.62264
352.7	1.6221
352.8	1.62157
352.9	1.62103
353	1.6205
353.1	1.61996
353.2	1.61943
353.3	1.61889
353.4	1.61836
353.5	1.61782
353.6	1.61729
353.7	1.61676
353.8	1.61623
353.9	1.61569
354	1.61516
354.1	1.61463
354.2	1.6141
354.3	1.61357
354.4	1.61304
354.5	1.61251
354.6	1.61198
354.7	1.61146
354.8	1.61093
354.9	1.6104
355	1.60987
355.1	1.60935
355.2	1.60882
355.3	1.6083
355.4	1.60777
355.5	1.60725
355.6	1.60672
355.7	1.6062
355.8	1.60567
355.9	1.60515
356	1.60463
356.1	1.60411
356.2	1.60358
356.3	1.60306
356.4	1.60254
356.5	1.60202
356.6	1.6015
356.7	1.60098
356.8	1.60046
356.9	1.59994
357	1.59943
357.1	1.59891
357.2	1.59839
357.3	1.59787
357.4	1.59736
357.5	1.59684
357.6	1.59632
357.7	1.59581
357.8	1.59529
357.9	1.59478
358	1.59426
358.1	1.59375
358.2	1.59324
358.3	1.59272
358.4	1.59221
358.5	1.5917
358.6	1.59119
358.7	1.59068
358.8	1.59017
358.9	1.58966
359	1.58914
359.1	1.58864
359.2	1.58813
359.3	1.58762
359.4	1.58711
359.5	1.5866
359.6	1.58609
359.7	1.58559
359.8	1.58508
359.9	1.58457
360	1.58407
370	1.53539
380	1.4902
390	1.44806
400	1.4086
410	1.37153
420	1.33661
430	1.30361
440	1.27237
450	1.24273
460	1.21454
470	1.1877
480	1.1621
490	1.13765
500	1.11425
510	1.09185
520	1.07037
530	1.04975
540	1.02994
550	1.01089
560	0.992555
570	0.974889
580	0.957858
590	0.941425
600	0.925558
610	0.910228
620	0.895406
630	0.881068
640	0.867189
650	0.853746
660	0.840719
670	0.828089
680	0.815837
690	0.803946
700	0.7924
710	0.781183
720	0.770283
730	0.759685
740	0.749377
750	0.739347
760	0.729584
770	0.720077
780	0.710816
790	0.701791
800	0.692993
810	0.684415
820	0.676047
830	0.667883
840	0.659914
850	0.652133
860	0.644535
870	0.637112
880	0.629859
890	0.62277
900	0.615838
910	0.60906
920	0.60243
930	0.595943
940	0.589595
950	0.58338
960	0.577296
970	0.571338
980	0.565501
990	0.559783
1000	0.554179

Note: src/lahde/tccbuilder/public/TCCMaterialLibrary/700008-Ethanol/data/Emissivity data.txt
Although we did not find a direct information on the emissivity of ethanol surface,
one should be careful as it might be as high as 0.98 according to
Brutin, D. et al., Microgravity Sci. Technol. 22, 387–395 (2010). https://doi.org/10.1007/s12217-010-9200-2

Note: src/lahde/tccbuilder/public/TCCMaterialLibrary/700008-Ethanol/data/Melting point.txt
159 K
Source: https://www.chemicalbook.com/ChemicalProductProperty_EN_CB2362508.htm#:~:text=Its%20low%20melting%20point%20of,be%20used%20in%20antifreeze%20products. (27/12/23)

Note: src/lahde/tccbuilder/public/TCCMaterialLibrary/700008-Ethanol/data/Specific heat capacity.txt
Data from Coolprop (www.coolprop.org)
Temperature(K)	Specific heat capacity(J/kg/K)

160	1804.65
170	1879.92
180	1918.13
190	1937.89
200	1953.58
210	1973.38
220	2000.55
230	2035.45
240	2077.26
250	2125.1
260	2178.47
270	2237.35
280	2301.95
290	2372.5
300	2449.11
310	2531.66
320	2619.83
330	2713.2
340	2811.48
350	2914.63
350.1	2915.69
350.2	2916.75
350.3	2917.81
350.4	2918.86
350.5	2919.92
350.6	2920.98
350.7	2922.04
350.8	2923.1
350.9	2924.17
351	2925.23
351.1	2926.29
351.2	2927.35
351.3	1716.43
351.4	1716.59
351.5	1716.75
351.6	1716.92
351.7	1717.08
351.8	1717.24
351.9	1717.41
352	1717.57
352.1	1717.73
352.2	1717.9
352.3	1718.06
352.4	1718.23
352.5	1718.39
352.6	1718.56
352.7	1718.73
352.8	1718.89
352.9	1719.06
353	1719.23
353.1	1719.39
353.2	1719.56
353.3	1719.73
353.4	1719.9
353.5	1720.07
353.6	1720.24
353.7	1720.41
353.8	1720.58
353.9	1720.75
354	1720.92
354.1	1721.09
354.2	1721.26
354.3	1721.43
354.4	1721.61
354.5	1721.78
354.6	1721.95
354.7	1722.12
354.8	1722.3
354.9	1722.47
355	1722.64
355.1	1722.82
355.2	1722.99
355.3	1723.17
355.4	1723.34
355.5	1723.52
355.6	1723.7
355.7	1723.87
355.8	1724.05
355.9	1724.23
356	1724.4
356.1	1724.58
356.2	1724.76
356.3	1724.94
356.4	1725.12
356.5	1725.29
356.6	1725.47
356.7	1725.65
356.8	1725.83
356.9	1726.01
357	1726.19
357.1	1726.37
357.2	1726.56
357.3	1726.74
357.4	1726.92
357.5	1727.1
357.6	1727.28
357.7	1727.46
357.8	1727.65
357.9	1727.83
358	1728.01
358.1	1728.2
358.2	1728.38
358.3	1728.57
358.4	1728.75
358.5	1728.94
358.6	1729.12
358.7	1729.31
358.8	1729.49
358.9	1729.68
359	1729.87
359.1	1730.05
359.2	1730.24
359.3	1730.43
359.4	1730.61
359.5	1730.8
359.6	1730.99
359.7	1731.18
359.8	1731.37
359.9	1731.56
360	1731.75
370	1751.99
380	1774.42
390	1798.49
400	1823.79
410	1850.02
420	1876.92
430	1904.29
440	1931.96
450	1959.81
460	1987.72
470	2015.61
480	2043.42
490	2071.07
500	2098.53
510	2125.77
520	2152.74
530	2179.42
540	2205.81
550	2231.87
560	2257.61
570	2283.02
580	2308.09
590	2332.81
600	2357.2
610	2381.24
620	2404.94
630	2428.31
640	2451.34
650	2474.05
660	2496.42
670	2518.48
680	2540.23
690	2561.66
700	2582.79
710	2603.62
720	2624.15
730	2644.4
740	2664.36
750	2684.04
760	2703.45
770	2722.59
780	2741.46
790	2760.07
800	2778.43
810	2796.54
820	2814.39
830	2832.01
840	2849.39
850	2866.53
860	2883.43
870	2900.11
880	2916.57
890	2932.8
900	2948.82
910	2964.62
920	2980.2
930	2995.58
940	3010.75
950	3025.72
960	3040.49
970	3055.06
980	3069.44
990	3083.62
1000	3097.62

Note: src/lahde/tccbuilder/public/TCCMaterialLibrary/README.md
# TCCMaterialLibrary

When adding a material, first read Material classification.docx.
Make a folder for the material named with its ID and short name (see Material classification.xlsx for ID creation).
Create two subfolders: appInfo and data.
Input all the necessary files (in right format) in the folders (see Material classification.docx).
Add the material to the Material classification.xlsx tables.
Add the flags of the material to materials_flags.csv.

File: Thermal conductivity.txt
Data from Coolprop (www.coolprop.org)
Temperature(K)	Thermal conductivity(W/m/K)

160	0.22005
170	0.212227
180	0.205588
190	0.199758
200	0.194548
210	0.189857
220	0.185618
230	0.181782
240	0.178307
250	0.175158
260	0.1723
270	0.169699
280	0.167325
290	0.165147
300	0.163135
310	0.16126
320	0.159493
330	0.157807
340	0.156178
350	0.154581
350.1	0.154565
350.2	0.154549
350.3	0.154533
350.4	0.154517
350.5	0.154501
350.6	0.154485
350.7	0.15447
350.8	0.154454
350.9	0.154438
351	0.154422
351.1	0.154406
351.2	0.15439
351.3	0.0206883
351.4	0.0206987
351.5	0.0207092
351.6	0.0207196
351.7	0.0207301
351.8	0.0207405
351.9	0.020751
352	0.0207614
352.1	0.0207719
352.2	0.0207824
352.3	0.0207928
352.4	0.0208033
352.5	0.0208138
352.6	0.0208242
352.7	0.0208347
352.8	0.0208452
352.9	0.0208557
353	0.0208661
353.1	0.0208766
353.2	0.0208871
353.3	0.0208976
353.4	0.0209081
353.5	0.0209186
353.6	0.0209291
353.7	0.0209396
353.8	0.0209501
353.9	0.0209606
354	0.0209711
354.1	0.0209816
354.2	0.0209921
354.3	0.0210026
354.4	0.0210131
354.5	0.0210236
354.6	0.0210341
354.7	0.0210446
354.8	0.0210552
354.9	0.0210657
355	0.0210762
355.1	0.0210867
355.2	0.0210973
355.3	0.0211078
355.4	0.0211183
355.5	0.0211289
355.6	0.0211394
355.7	0.0211499
355.8	0.0211605
355.9	0.021171
356	0.0211816
356.1	0.0211921
356.2	0.0212027
356.3	0.0212132
356.4	0.0212238
356.5	0.0212343
356.6	0.0212449
356.7	0.0212555
356.8	0.021266
356.9	0.0212766
357	0.0212872
357.1	0.0212977
357.2	0.0213083
357.3	0.0213189
357.4	0.0213295
357.5	0.02134
357.6	0.0213506
357.7	0.0213612
357.8	0.0213718
357.9	0.0213824
358	0.021393
358.1	0.0214036
358.2	0.0214142
358.3	0.0214248
358.4	0.0214354
358.5	0.021446
358.6	0.0214566
358.7	0.0214672
358.8	0.0214778
358.9	0.0214884
359	0.021499
359.1	0.0215096
359.2	0.0215202
359.3	0.0215308
359.4	0.0215415
359.5	0.0215521
359.6	0.0215627
359.7	0.0215733
359.8	0.021584
359.9	0.0215946
360	0.0216052
370	0.0226793
380	0.0237734
390	0.0248864
400	0.026017
410	0.0271641
420	0.0283266
430	0.0295034
440	0.0306937
450	0.0318963
460	0.0331106
470	0.0343356
480	0.0355707
490	0.036815
500	0.0380679
510	0.0393288
520	0.0405971
530	0.0418721
540	0.0431534
550	0.0444405
560	0.0457328
570	0.0470299
580	0.0483315
590	0.0496371
600	0.0509463
610	0.0522588
620	0.0535743
630	0.0548924
640	0.0562129
650	0.0575354
660	0.0588598
670	0.0601856
680	0.0615128
690	0.0628411
700	0.0641703
710	0.0655001
720	0.0668304
730	0.068161
740	0.0694917
750	0.0708223
760	0.0721527
770	0.0734828
780	0.0748124
790	0.0761413
800	0.0774695
810	0.0787967
820	0.0801229
830	0.081448
840	0.0827718
850	0.0840943
860	0.0854153
870	0.0867348
880	0.0880526
890	0.0893686
900	0.0906829
910	0.0919952
920	0.0933055
930	0.0946137
940	0.0959198
950	0.0972236
960	0.0985251
970	0.0998243
980	0.101121
990	0.102415
1000	0.103707