Folder: TCCbuilderApp/src/lahde/tccbuilder/public/TCCMaterialLibrary/700011-Water/data

Note: src/lahde/tccbuilder/public/TCCMaterialLibrary/700011-Water/data/Density.txt
Data from Coolprop (www.coolprop.org)
Temperature(K)	Density(kg/m^3)

280	999.91
290	998.803
300	996.556
310	993.383
320	989.426
330	984.786
340	979.535
350	973.728
360	967.403
370	960.591
370.1	960.521
370.2	960.45
370.3	960.38
370.4	960.309
370.5	960.238
370.6	960.168
370.7	960.097
370.8	960.026
370.9	959.955
371	959.884
371.1	959.813
371.2	959.742
371.3	959.671
371.4	959.6
371.5	959.529
371.6	959.458
371.7	959.387
371.8	959.315
371.9	959.244
372	959.173
372.1	959.101
372.2	959.03
372.3	958.958
372.4	958.887
372.5	958.815
372.6	958.743
372.7	958.672
372.8	0.590268
372.9	0.590097
373	0.589926
373.1	0.589755
373.2	0.589584
373.3	0.589413
373.4	0.589243
373.5	0.589072
373.6	0.588902
373.7	0.588731
373.8	0.588561
373.9	0.588391
374	0.588221
374.1	0.588051
374.2	0.587881
374.3	0.587712
374.4	0.587542
374.5	0.587373
374.6	0.587204
374.7	0.587035
374.8	0.586866
374.9	0.586697
380	0.578235
390	0.562445
400	0.547605
410	0.533611
420	0.520378
430	0.507835
440	0.495921
450	0.484584
460	0.473779
470	0.463466
480	0.453609
490	0.444177
500	0.43514
510	0.426473
520	0.418153
530	0.410159
540	0.40247
550	0.395069
560	0.38794
570	0.381068
580	0.374438
590	0.368037
600	0.361855
610	0.355878
620	0.350098
630	0.344505
640	0.339089
650	0.333842
660	0.328756
670	0.323824
680	0.319038
690	0.314393
700	0.309882
710	0.305499
720	0.30124
730	0.297098
740	0.293068
750	0.289148
760	0.285331
770	0.281614
780	0.277993
790	0.274464
800	0.271024
810	0.267669
820	0.264397
830	0.261204
840	0.258088
850	0.255045
860	0.252073
870	0.24917
880	0.246333
890	0.24356
900	0.240849
910	0.238198
920	0.235605
930	0.233067
940	0.230584
950	0.228154
960	0.225774
970	0.223443
980	0.22116
990	0.218923
1000	0.216731

Note: src/lahde/tccbuilder/public/TCCMaterialLibrary/700011-Water/data/Emissivity.txt
Source: https://journals.ametsoc.org/view/journals/apme/11/8/1520-0450_1972_011_1391_ldowse_2_0_co_2.xml#:~:text=The%20results%20confirm%20a%20previous,is%20approximately%20equal%20to%200.97. (29/12/23)

0.97

Note: src/lahde/tccbuilder/public/TCCMaterialLibrary/700011-Water/data/Specific heat capacity.txt
Data from Coolprop (www.coolprop.org)
Temperature(K)	Specific heat capacity(J/kg/K)

280	4200.94
290	4186.6
300	4180.64
310	4179.24
320	4180.54
330	4183.65
340	4188.3
350	4194.47
360	4202.34
370	4212.15
370.1	4212.25
370.2	4212.36
370.3	4212.47
370.4	4212.58
370.5	4212.69
370.6	4212.8
370.7	4212.91
370.8	4213.02
370.9	4213.13
371	4213.24
371.1	4213.35
371.2	4213.46
371.3	4213.58
371.4	4213.69
371.5	4213.8
371.6	4213.91
371.7	4214.02
371.8	4214.14
371.9	4214.25
372	4214.36
372.1	4214.48
372.2	4214.59
372.3	4214.7
372.4	4214.82
372.5	4214.93
372.6	4215.04
372.7	4215.16
372.8	2078.24
372.9	2077.77
373	2077.31
373.1	2076.85
373.2	2076.39
373.3	2075.93
373.4	2075.48
373.5	2075.03
373.6	2074.58
373.7	2074.13
373.8	2073.69
373.9	2073.25
374	2072.82
374.1	2072.38
374.2	2071.95
374.3	2071.52
374.4	2071.1
374.5	2070.67
374.6	2070.25
374.7	2069.83
374.8	2069.42
374.9	2069
380	2050.69
390	2025.2
400	2007.76
410	1995.42
420	1986.76
430	1980.89
440	1977.19
450	1975.2
460	1974.58
470	1975.06
480	1976.44
490	1978.54
500	1981.26
510	1984.48
520	1988.12
530	1992.12
540	1996.43
550	2001
560	2005.8
570	2010.8
580	2015.98
590	2021.3
600	2026.77
610	2032.35
620	2038.05
630	2043.85
640	2049.74
650	2055.72
660	2061.78
670	2067.9
680	2074.1
690	2080.36
700	2086.68
710	2093.06
720	2099.48
730	2105.96
740	2112.49
750	2119.06
760	2125.68
770	2132.34
780	2139.03
790	2145.76
800	2152.53
810	2159.33
820	2166.16
830	2173.01
840	2179.9
850	2186.8
860	2193.73
870	2200.68
880	2207.65
890	2214.64
900	2221.64
910	2228.66
920	2235.68
930	2242.72
940	2249.76
950	2256.81
960	2263.87
970	2270.92
980	2277.98
990	2285.04
1000	2292.09

Note: src/lahde/tccbuilder/public/TCCMaterialLibrary/README.md
# TCCMaterialLibrary

When adding a material, first read Material classification.docx.
Make a folder for the material named with its ID and short name (see Material classification.xlsx for ID creation).
Create two subfolders: appInfo and data.
Input all the necessary files (in right format) in the folders (see Material classification.docx).
Add the material to the Material classification.xlsx tables.
Add the flags of the material to materials_flags.csv.

File: Thermal conductivity.txt
Data from Coolprop (www.coolprop.org)
Temperature(K)	Thermal conductivity(W/m/K)

280	0.57198
290	0.592297
300	0.609499
310	0.624269
320	0.636995
330	0.647911
340	0.657167
350	0.664873
360	0.671114
370	0.675961
370.1	0.676003
370.2	0.676044
370.3	0.676086
370.4	0.676127
370.5	0.676168
370.6	0.676209
370.7	0.67625
370.8	0.676291
370.9	0.676331
371	0.676372
371.1	0.676412
371.2	0.676452
371.3	0.676492
371.4	0.676532
371.5	0.676572
371.6	0.676612
371.7	0.676651
371.8	0.676691
371.9	0.67673
372	0.676769
372.1	0.676808
372.2	0.676847
372.3	0.676886
372.4	0.676924
372.5	0.676963
372.6	0.677001
372.7	0.677039
372.8	0.0245353
372.9	0.0245436
373	0.0245519
373.1	0.0245602
373.2	0.0245684
373.3	0.0245767
373.4	0.024585
373.5	0.0245933
373.6	0.0246016
373.7	0.0246098
373.8	0.0246181
373.9	0.0246264
374	0.0246347
374.1	0.024643
374.2	0.0246513
374.3	0.0246595
374.4	0.0246678
374.5	0.0246761
374.6	0.0246844
374.7	0.0246927
374.8	0.024701
374.9	0.0247093
380	0.0251336
390	0.0259736
400	0.026825
410	0.0276885
420	0.0285645
430	0.0294532
440	0.0303549
450	0.0312694
460	0.0321967
470	0.0331368
480	0.0340895
490	0.0350546
500	0.0360318
510	0.0370211
520	0.038022
530	0.0390345
540	0.0400583
550	0.041093
560	0.0421386
570	0.0431947
580	0.0442611
590	0.0453376
600	0.0464239
610	0.0475199
620	0.0486252
630	0.0497398
640	0.0508633
650	0.0519956
660	0.0531365
670	0.0542857
680	0.0554431
690	0.0566085
700	0.0577818
710	0.0589627
720	0.060151
730	0.0613467
740	0.0625495
750	0.0637593
760	0.0649759
770	0.0661992
780	0.067429
790	0.0686652
800	0.0699077
810	0.0711562
820	0.0724107
830	0.0736711
840	0.0749371
850	0.0762088
860	0.0774859
870	0.0787684
880	0.0800561
890	0.0813489
900	0.0826467
910	0.0839494
920	0.0852569
930	0.086569
940	0.0878858
950	0.089207
960	0.0905326
970	0.0918625
980	0.0931966
990	0.0945348
1000	0.095877