Folder: TCCbuilderApp/src/lahde/tccbuilder/public/TCCMaterialLibrary/100022-NiTi/data

Note: src/lahde/tccbuilder/public/TCCMaterialLibrary/100022-NiTi/data/Latent heat.txt
Data from Warzoha 2020 (10.1016/j.ijheatmasstransfer.2020.119760)
Approximated as average of DSC and PPMS methods
Latent heat (J/g), endothermic and exothermic

0.984
0.19

Note: src/lahde/tccbuilder/public/TCCMaterialLibrary/README.md
# TCCMaterialLibrary

When adding a material, first read Material classification.docx.
Make a folder for the material named with its ID and short name (see Material classification.xlsx for ID creation).
Create two subfolders: appInfo and data.
Input all the necessary files (in right format) in the folders (see Material classification.docx).
Add the material to the Material classification.xlsx tables.
Add the flags of the material to materials_flags.csv.

File: Thermal conductivity.txt
Data from Warzoha 2020 (10.1016/j.ijheatmasstransfer.2020.119760)
Temperature(K)	Thermal conductivity(W/m/K)

211.29	8.98662
219.213	8.47902
228.158	8.54818
240.992	8.45597
325.775	14.7723
337.183	13.9655
347.036	14.1038
357.277	14.0346