Folder: TCCbuilderApp/src/lahde/tccbuilder/public/TCCMaterialLibrary/700002-He/data

Note: src/lahde/tccbuilder/public/TCCMaterialLibrary/700002-He/data/Material.txt
Elementary helium (He)

Can be solidified only under pressure.
Boiling point: 4.22 K
Source: Wikipedia (01/01/24)

Note: src/lahde/tccbuilder/public/TCCMaterialLibrary/700002-He/data/Specific heat capacity.txt
Data from Coolprop (www.coolprop.org)
Temperature(K)	Specific heat capacity(J/kg/K)

100	5194.97
110	5194.61
120	5194.33
130	5194.12
140	5193.95
150	5193.82
160	5193.71
170	5193.62
180	5193.55
190	5193.49
200	5193.44
210	5193.4
220	5193.36
230	5193.33
240	5193.3
250	5193.28
260	5193.26
270	5193.24
280	5193.22
290	5193.21
300	5193.2
310	5193.19
320	5193.18
330	5193.17
340	5193.16
350	5193.15
360	5193.15
370	5193.14
380	5193.14
390	5193.13
400	5193.13
410	5193.13
420	5193.12
430	5193.12
440	5193.12
450	5193.12
460	5193.11
470	5193.11
480	5193.11
490	5193.11
500	5193.11
510	5193.11
520	5193.11
530	5193.11
540	5193.1
550	5193.1
560	5193.1
570	5193.1
580	5193.1
590	5193.1
600	5193.1
610	5193.1
620	5193.1
630	5193.1
640	5193.1
650	5193.1
660	5193.1
670	5193.1
680	5193.1
690	5193.1
700	5193.1
710	5193.1
720	5193.1
730	5193.1
740	5193.1
750	5193.1
760	5193.1
770	5193.1
780	5193.1
790	5193.1
800	5193.1
810	5193.1
820	5193.1
830	5193.1
840	5193.1
850	5193.1
860	5193.1
870	5193.1
880	5193.1
890	5193.1
900	5193.11
910	5193.11
920	5193.11
930	5193.11
940	5193.11
950	5193.11
960	5193.11
970	5193.11
980	5193.11
990	5193.11
1000	5193.11

Note: src/lahde/tccbuilder/public/TCCMaterialLibrary/README.md
# TCCMaterialLibrary

When adding a material, first read Material classification.docx.
Make a folder for the material named with its ID and short name (see Material classification.xlsx for ID creation).
Create two subfolders: appInfo and data.
Input all the necessary files (in right format) in the folders (see Material classification.docx).
Add the material to the Material classification.xlsx tables.
Add the flags of the material to materials_flags.csv.

File: Thermal conductivity.txt
Data from Coolprop (www.coolprop.org)
Temperature(K)	Thermal conductivity(W/m/K)

100	0.0737127
110	0.0785856
120	0.0833323
130	0.0879661
140	0.0924981
150	0.0969373
160	0.101292
170	0.105568
180	0.109772
190	0.113908
200	0.117982
210	0.121997
220	0.125957
230	0.129865
240	0.133723
250	0.137535
260	0.141303
270	0.145029
280	0.148715
290	0.152362
300	0.155973
310	0.159549
320	0.163092
330	0.166602
340	0.170081
350	0.17353
360	0.176951
370	0.180344
380	0.18371
390	0.187051
400	0.190366
410	0.193657
420	0.196925
430	0.20017
440	0.203392
450	0.206594
460	0.209774
470	0.212935
480	0.216076
490	0.219197
500	0.2223
510	0.225385
520	0.228452
530	0.231502
540	0.234534
550	0.237551
560	0.240551
570	0.243536
580	0.246505
590	0.249459
600	0.252399
610	0.255324
620	0.258235
630	0.261133
640	0.264016
650	0.266887
660	0.269745
670	0.272589
680	0.275422
690	0.278242
700	0.28105
710	0.283847
720	0.286631
730	0.289405
740	0.292167
750	0.294919
760	0.297659
770	0.300389
780	0.303108
790	0.305818
800	0.308517
810	0.311206
820	0.313886
830	0.316555
840	0.319216
850	0.321867
860	0.324509
870	0.327142
880	0.329765
890	0.332381
900	0.334987
910	0.337585
920	0.340175
930	0.342756
940	0.345329
950	0.347894
960	0.350451
970	0.353
980	0.355542
990	0.358076
1000	0.360602