Folder: TCCbuilderApp/src/lahde/tccbuilder/public/TCCMaterialLibrary/300007-PTFE/data

Note: src/lahde/tccbuilder/public/TCCMaterialLibrary/300007-PTFE/data/Density.txt
Source: CRC handbook of Chemistry and Physics, page 13-4
Density (kg/m3)

2160.0

Note: src/lahde/tccbuilder/public/TCCMaterialLibrary/300007-PTFE/data/Emissivity.txt
Data from: Grenis, A. F.; Wong, A. K. (1958) The Total Normal Thermal Emissivity of Teflon, KEL-F, and Duroid 5600 at Elevated Temperatures.

Note: src/lahde/tccbuilder/public/TCCMaterialLibrary/300007-PTFE/data/Material.txt
Source: CRC handbook of Chemistry and Physics, page 13-4
 
Material: PTFE 
Density: 2160 Kg/m3 (original value: 2.16 g cm-3) 


Other references that we have selected from the literature:

American Institute of Physics Handbook, 3rd Ed., Coordinating editor: Dwight E. Gray, ISBN: 07-001485-X.
 
CODATA Key Values For Thermodynamics, Final Report of the CODATA Task Group on Key Values for Thermodynamics, ISBN: 0-89116-758-7.

Smithsonian Physical Tables, 9th revised Ed, prepared by William Elmer Forsythe.

NIST-JANAF Thermomechanical Tables, 4th Ed., Malcolm W. Chase, Jr.

Themodynamic Properties of Minerals and Related Substances , U.S. Geological Survey Bulletin 1452.

Thermomechanical Data of Pure Substances, Ihsan Barin, 3rd Ed., ISBN: 3-527-28745-0.

Thermomechanical Properties of Inorganic Substances, Ihsn Barin et al, Supplement, ISBN: 978-3-662-02295-5, DOI: 10.1007/978-3-662-02293-1.

Note: src/lahde/tccbuilder/public/TCCMaterialLibrary/300007-PTFE/data/Melting point.txt
Source: https://www.sciencedirect.com/topics/chemistry/poly-tetrafluoroethylene#:~:text=High%20molecular%20weight%20PTFE%20resins,608%E2%80%93648%20%C2%B0F). (02/01/24)
~600 K

Note: src/lahde/tccbuilder/public/TCCMaterialLibrary/300007-PTFE/data/Specific heat capacity.txt
From CRC handbook of Chemistry and Physics, page 12-210
Temperature (K)	Specific heat capacity (J/kg/K)

4	2.32
6	3.69
8	9.104
10	18.02
12	29.27
14	41.50
16	53.77
18	65.60
20	76.79
30	124.3
40	164.4
50	202.1
60	239.0
70	275.6
80	312.0
90	348.4
100	384.6
120	456.7
140	528.4
160	599.6
180	670.0
200	738.9
220	805.8
240	869.5
260	929.2
280	983.6
300	1032

Note: src/lahde/tccbuilder/public/TCCMaterialLibrary/README.md
# TCCMaterialLibrary

When adding a material, first read Material classification.docx.
Make a folder for the material named with its ID and short name (see Material classification.xlsx for ID creation).
Create two subfolders: appInfo and data.
Input all the necessary files (in right format) in the folders (see Material classification.docx).
Add the material to the Material classification.xlsx tables.
Add the flags of the material to materials_flags.csv.

File: Thermal conductivity.txt
From CRC handbook of Chemistry and Physics, page 12-209
Temperature (K)	Thermal conductivity (W/m/K)

4	0.04599
6	0.06624
8	0.08244
10	0.09545
12	0.1066
14	0.1166
16	0.1258
18	0.1343
20	0.1422
30	0.1738
40	0.1953
50	0.2099
60	0.2203
70	0.2280
80	0.2341
90	0.2391
100	0.2434
120	0.2505
140	0.2562
160	0.2608
180	0.2644
200	0.2672
220	0.2692
240	0.2705
260	0.2715
280	0.2722
300	0.2728