Folder: TCCbuilderApp/src/lahde/tccbuilder/public/TCCMaterialLibrary/500009-InAs/data

Note: src/lahde/tccbuilder/public/TCCMaterialLibrary/500009-InAs/data/Density.txt
From CRC handbook of Chemistry and Physics
Density (kg/m3)

5670

Note: src/lahde/tccbuilder/public/TCCMaterialLibrary/500009-InAs/data/Material.txt
From CRC handbook of Chemistry and Physics
Indium arsenide CAS no: 1303-11-3. Molecular Weight 189.74
Density: 5.67 g/cm3

Melting point: 1215 K
Source: Wikipedia (02/01/24)

Note: src/lahde/tccbuilder/public/TCCMaterialLibrary/500009-InAs/data/Specific heat capacity.txt
Cp data is from Themomechanical Data of Pure Substances - Ihsan Barin - Page 848
J/mol K is converted to J/KgK using 189.74 g/mol molecular Wt. from CRC handbook of Chemistry and Physics.

Original data
Temperature (K)	Specific heat capacity (J/mol/K)

298.15	47.78
300	47.79
400	48.55
500	49.30
600	50.05
700	50.81
800	51.56
900	52.31
1000	53.07
1100	53.82
1200	54.57
1215	54.69


Converted data
Temperature (K)	Specific heat capacity (J/kg/K)

298.15	251.82
300	251.89
400	255.86
500	259.83
600	263.80
700	267.77
800	271.74
900	275.71
1000	279.68
1100	283.65
1200	287.61
1215	288.21

Note: src/lahde/tccbuilder/public/TCCMaterialLibrary/README.md
# TCCMaterialLibrary

When adding a material, first read Material classification.docx.
Make a folder for the material named with its ID and short name (see Material classification.xlsx for ID creation).
Create two subfolders: appInfo and data.
Input all the necessary files (in right format) in the folders (see Material classification.docx).
Add the material to the Material classification.xlsx tables.
Add the flags of the material to materials_flags.csv.

File: Thermal conductivity.txt
Data from Thermal Conductivity of InAs/GaSb Type II Superlattice CHUANLE ZHOU,1,3 B. -M. NGUYEN,2 M. RAZEGHI,2 and M. GRAYSON, Journal of ELECTRONIC MATERIALS, Vol. 41, No. 9, 2012
DOI: 10.1007/s11664-012-2146-y

It is cross ref but the data is for bulk.

Temperature (K)	Thermal conductivity (W/m/K)

2.2963	263.90
2.6066	310.39
2.6454	374.31
2.8693	429.41
3.0627	492.62
3.3218	579.41
3.6029	760.95
3.8458	872.96
4.2333	974.73
4.3015	1177.91
4.6598	1348.48
4.5242	1629.56
5.0541	1865.53
5.4818	2140.12
5.7655	2517.21
6.3464	2960.73
6.8834	3305.89
7.6897	3896.47
10.1057	3896.47
12.2447	3698.98
13.2808	3424.91
15.3755	3067.32
17.1765	2673.76
18.9072	2389.62
21.1478	1932.70
23.9765	1643.18
30.4049	1035.35
36.8405	729.94
61.3964	307.82
72.2265	233.90
94.9196	128.73
109.8908	106.75
135.1317	77.00
168.8502	60.12
195.4822	49.85
205.5993	48.62

Data for higher temperatures is from Muthaiah, Garg (2021), doi:10.1016/j.commatsci.2021.110531

99.1453	117.2747
201.7094	48.8181
297.4359	32.0030
398.2906	22.9014
500.8547	18.4687
600.0000	15.1332
704.2735	13.0073
801.7094	11.4505
996.5812	9.2342