Folder: TCCbuilderApp/src/lahde/tccbuilder/public/TCCMaterialLibrary/100009-Pb/data

Note: src/lahde/tccbuilder/public/TCCMaterialLibrary/100009-Pb/data/Density.txt
Data is averaged from all the data from NIST web application (https://trc.nist.gov/MetalsAlloyUI/).
Temperature (K)	Density (kg/m^3)

292.5	11373.07
595.95	10888.39
612.81	10754.93
657.77	10649.56
702.73	10586.34
742.06	10523.12
798.26	10445.85
879.74	10354.54
933.13	10270.24
1006.18	10200
1056.75	10108.68
1104.52	10059.51
1174.76	10003.32
1219.72	9904.98
1270.3	9834.73
1346.16	9771.51
1469.79	9624
1582.18	9455.41
1680.52	9343.02
1731.1	9286.83
1798.53	9209.56
1849.11	9104.2
1910.92	8970.73
1967.12	8886.44

Note: src/lahde/tccbuilder/public/TCCMaterialLibrary/100009-Pb/data/material.txt
Elementary lead (Pb)

Emissivity of lead taken from https://www.omega.co.uk/literature/transactions/volume1/emissivitya.html (02/01/24)
Emissivity depends strongly on the finishing. Polished lead has emissivity <0.1 and rough surface has emissivity of ~0.4

Note: src/lahde/tccbuilder/public/TCCMaterialLibrary/100009-Pb/data/Specific heat capacity.txt
Data is averaged from all the data from NIST web application (https://trc.nist.gov/MetalsAlloyUI/).
Temperature (K)	Specific heat capacity (J/kg/K)

0.0	0.0
6.61	1.27
10.33	13.18
14.05	33.46
22.73	52.98
23.97	65.9
30.17	81.11
42.56	95.82
52.48	105.45
66.12	111.28
82.23	114.83
104.55	118.38
133.06	120.91
170.25	122.18
202.48	123.95
234.71	124.46
268.18	125.98
304.13	126.99
341.32	128.77
376.03	130.04
411.98	131.56
441.74	133.33
477.69	134.85
512.4	136.88
548.35	139.67
578.1	142.71
592.98	147.78
601.13	1613.55
641.07	148.34
687.19	144.99
731.82	142.56
776.45	140.73
835.95	140.43
883.55	138.6
947.52	138.6
1059.09	138.3
1140.91	136.47
1218.26	135.26
1314.96	134.34
1387.85	132.52
1471.16	130.69
1569.34	130.39
1725.54	129.78
1854.96	129.78
2031.98	127.65

Note: src/lahde/tccbuilder/public/TCCMaterialLibrary/README.md
# TCCMaterialLibrary

When adding a material, first read Material classification.docx.
Make a folder for the material named with its ID and short name (see Material classification.xlsx for ID creation).
Create two subfolders: appInfo and data.
Input all the necessary files (in right format) in the folders (see Material classification.docx).
Add the material to the Material classification.xlsx tables.
Add the flags of the material to materials_flags.csv.

File: Thermal conductivity.txt
Data is averaged from all the data from NIST web application (https://trc.nist.gov/MetalsAlloyUI/).
Temperature (K)	Thermal conductivity (W/m/K)

0.46	13.35
0.99	77.31
1.79	156.51
2.32	260.06
2.72	348.39
3.12	467.18
3.92	534.19
5.52	445.86
6.58	324.03
7.51	232.65
9.24	156.51
12.57	92.54
15.36	71.22
18.95	55.99
23.74	43.81
28.13	46.86
33.72	40.77
37.98	46.86
42.9	43.81
77.09	40.77
80.15	37.72
83.81	40.28
127.43	37.52
184.47	36.79
233.13	35.77
290.17	35.63
328.75	34.76
379.08	33.74
437.8	32.58
479.74	32.58
528.4	31.41
578.73	29.96
603.89	28.5
608.92	16
644.16	15.71
692.81	16
738.1	16
783.4	16.14
833.73	16.14
872.32	16.58
917.62	16.58
978.01	16.43
1060.22	15.56
1170.94	13.53
1279.99	11.93
1375.62	11.2