Folder: TCCbuilderApp/src/lahde/tccbuilder/public/TCCMaterialLibrary/500008-Diamond/data

Note: src/lahde/tccbuilder/public/TCCMaterialLibrary/500008-Diamond/data/Density.txt
Data from https://geology.com/minerals/diamond.shtml (23. 1. 2022)
Density is taken as an average value stated online.
Density (kg/m3)

3500.0

Note: src/lahde/tccbuilder/public/TCCMaterialLibrary/500008-Diamond/data/material.txt
Diamond, type II

Melting point of diamond is very high and requires large pressure.

Note: src/lahde/tccbuilder/public/TCCMaterialLibrary/500008-Diamond/data/Specific heat capacity.txt
Data from Desorbo 1953 (http://dx.doi.org/10.1063/1.1699050) and
Victor 1962 (http://dx.doi.org/10.1063/1.1701288)

Temperature(K)	Heat capacity(cal/g-atom/K)	Heat capacity(J/kg/K)

25	0.0012	0.418331391
30	0.0018	0.627497086
40	0.0034	1.185272273
50	0.0054	1.882491257
60	0.0089	3.10262448
70	0.0154	5.368586178
75	0.0203	7.076772689
80	0.0262	9.133568693
90	0.0418	14.57187677
100	0.059	20.56796003
110	0.082	28.58597835
120	0.112	39.04426311
125	0.1295	45.14492923
130	0.1481	51.62906578
140	0.1899	66.20094255
150	0.2391	83.35252956
160	0.2941	102.5260516
170	0.3516	122.5710974
175	0.3829	133.4825745
180	0.4156	144.8821049
190	0.4842	168.7967161
200	0.5584	194.6635404
210	0.6382	222.4825779
220	0.7223	251.8006361
225	0.7653	266.7908443
230	0.8078	281.6067477
240	0.8953	312.1100783
250	0.9884	344.565622
260	1.0859	378.5550475
270	1.1829	412.3701682
275	1.2319	429.4520333
280	1.281	446.5687594
290	1.379	480.7324896
298.16	1.4615	509.4927727
300	1.4805	516.116353
320	1.679	585.3153372
340	1.878	654.6886261
360	2.073	722.6674771
380	2.263	788.9032806
400	2.446	852.6988177
420	2.621	913.7054788
440	2.788	971.9232639
460	2.947	1027.352173
480	3.098	1079.992206
500	3.242	1130.191973
550	3.568	1243.838668
600	3.852	1342.843764
650	4.098	1428.601699
700	4.312	1503.20413
750	4.497	1567.696886
800	4.66	1624.520233
850	4.803	1674.371391
900	4.932	1719.342015
950	5.05	1760.477935
1000	5.162	1799.522198
1050	5.27	1837.172023
1100	5.38	1875.519067

Note: src/lahde/tccbuilder/public/TCCMaterialLibrary/README.md
# TCCMaterialLibrary

When adding a material, first read Material classification.docx.
Make a folder for the material named with its ID and short name (see Material classification.xlsx for ID creation).
Create two subfolders: appInfo and data.
Input all the necessary files (in right format) in the folders (see Material classification.docx).
Add the material to the Material classification.xlsx tables.
Add the flags of the material to materials_flags.csv.

File: Thermal conductivity.txt
Data from Berman 1975 (10.1088/0022-3719/8/21/003) and
Burgemeister 1977 (10.1016/0378-4363(78)90123-7)
Temperature(K)	Thermal conductivity(W/m/K)

1.92352	3.63078
2.3732	6.71128
2.82801	9.92989
3.31669	15.5378
3.88982	24.9029
4.52577	36.8459
5.14129	46.8334
5.79415	69.85
6.90457	109.298
8.22779	172.396
10.4501	324.215
12.1586	475.883
14.2596	676.516
16.0703	887.837
17.6832	1058.58
21.7546	1566.25
25.3113	2280.63
29.2157	2830.12
34.8147	4088.16
38.9242	4952.92
52.2739	7446.37
64.3097	8598.93
80.3878	9540.77
103.741	8807.67
120.701	7874.99
149.68	6929.38
158.268	5765.45
188.599	4683.34
205.88	3927.96
228.354	3401.47
257.352	2922.1
285.446	2373.65
299.427	2156.5
319.221	1860.86
324.329	1809.8
329.27	1750.36
333.276	1697.59
338.865	1628.19
344.808	1570.34
349.268	1527.25
356.739	1464.81
362.721	1397.13
371.321	1343.75
377.263	1271
384.751	1219.04
390.317	1182.29
395.963	1140.29
404.433	1090.63
412.461	1048.96
420.012	1008.88
425.123	967.635
432.579	935.856
439.5	900.098
448.224	860.901