Folder: TCCbuilderApp/src/lahde/tccbuilder/public/TCCMaterialLibrary/100023-NiTi/data

Note: src/lahde/tccbuilder/public/TCCMaterialLibrary/100023-NiTi/data/material.txt
Ni 50.75 - Ti 49.25 (probably at.%) grain size 10.97 +- 1.1 micron
From Warzoha 2020 (10.1016/j.ijheatmasstransfer.2020.119760)

Note: src/lahde/tccbuilder/public/TCCMaterialLibrary/README.md
# TCCMaterialLibrary

When adding a material, first read Material classification.docx.
Make a folder for the material named with its ID and short name (see Material classification.xlsx for ID creation).
Create two subfolders: appInfo and data.
Input all the necessary files (in right format) in the folders (see Material classification.docx).
Add the material to the Material classification.xlsx tables.
Add the flags of the material to materials_flags.csv.

File: Thermal conductivity.txt
Data from Warzoha 2020 (10.1016/j.ijheatmasstransfer.2020.119760)
Temperature(K)	Thermal conductivity(W/m/K)

208.28	10.7234
218.275	9.35473
227.35	8.47633
240.332	8.23119
320.288	18.2
330.282	17.5463
340.277	17.9548
350.271	18.3634