Folder: TCCbuilderApp/src/lahde/tccbuilder/public/TCCMaterialLibrary/100018-Ta/data

Note: src/lahde/tccbuilder/public/TCCMaterialLibrary/100018-Ta/data/Density.txt
Data is averaged from all the data from NIST web application (https://trc.nist.gov/MetalsAlloyUI/).
Temperature (K)	Density (kg/m^3)

35.43	16679.39
310.35	16690.84
2114.35	16106.87
2275.54	15980.92
2460.65	15866.41
2621.87	15767.18
2789.03	15637.4
2824.59	15416.03
2914.04	15270.99
3033.43	15171.76
3146.84	15068.7
3266.23	14973.28
3361.71	14870.23
3522.94	14774.81
3678.17	14664.12
3922.98	14503.82
4191.75	14389.31
4454.54	14267.18
4645.59	14125.95
4896.32	13931.3
5087.35	13770.99
5308.28	13637.4
5565.02	13458.02
5767.97	13282.44
5982.89	13114.5
6245.61	12942.75
6388.87	12816.79

Note: src/lahde/tccbuilder/public/TCCMaterialLibrary/100018-Ta/data/material.txt
Elementary Tantalum (Ta)

Melting point 3290 K, source:
https://en.wikipedia.org/wiki/Tantalum#:~:text=Tantalum's%20high%20melting%20point%20of,crystalline%20phases%2C%20alpha%20and%20beta. (14/12/23)

Emissivity data source:
\cite{D Giulietti_1981} doi = {10.1088/0022-3727/14/5/019}

Note: src/lahde/tccbuilder/public/TCCMaterialLibrary/100018-Ta/data/Specific heat capacity.txt
Data is averaged from all the data from NIST web application (https://trc.nist.gov/MetalsAlloyUI/).
Calculated with atomic mass 180.94788 u.
Temperature (K)	Heat capacity (J/kg/K)

26.16	1.73
41.85	16.05
57.54	32.53
78.47	54.64
94.16	72.43
136.01	89.77
166.52	104.93
206.48	116.37
239.17	123.9
290.03	129.02
355.42	132.94
428.07	135.95
522.52	138.66
620.6	141.67
722.32	143.78
827.67	144.38
1040.98	146.15
1187.45	146.59
1401.92	147.89
1600.7	150.92
1898.87	151.79
2160.42	153.96
2369.66	155.69
2594.59	157.86
2798.61	159.6
3002.62	162.2
3175.24	164.8
3405.41	166.1
3661.73	172.61
3808.2	176.51
4001.74	179.55
4163.91	181.28
4305.14	184.75
4519.62	191.26
4713.16	196.46
4859.63	202.53
5000.87	207.3
5142.11	216.41
5272.89	222.92
5372.28	231.16
5471.67	242.43
5837.84	304.88
5994.77	257.18
6162.16	224.22
6350.48	196.9
6512.64	173.91
6685.27	153.09
5659.98	384.25

Note: src/lahde/tccbuilder/public/TCCMaterialLibrary/README.md
# TCCMaterialLibrary

When adding a material, first read Material classification.docx.
Make a folder for the material named with its ID and short name (see Material classification.xlsx for ID creation).
Create two subfolders: appInfo and data.
Input all the necessary files (in right format) in the folders (see Material classification.docx).
Add the material to the Material classification.xlsx tables.
Add the flags of the material to materials_flags.csv.

File: Thermal conductivity.txt
Data is averaged from all the data from NIST web application (https://trc.nist.gov/MetalsAlloyUI/).
Temperature (K)	Thermal conductivity (W/m/K)

0.00	0.99
5.97	35.03
17.91	141.86
50.75	66.34
89.55	61.37
158.21	58.39
223.88	55.90
340.30	53.91
459.70	53.42
564.18	53.17
734.33	53.42
877.61	56.15
1017.91	58.39
1146.27	58.88
1313.43	58.88
1495.52	60.37
1668.66	60.87
1868.66	61.12
2023.88	61.61
2200.00	61.61
2364.18	61.86
2519.40	62.36
2716.42	62.61
2904.48	59.13
3065.67	59.13
3188.06	59.13