Folder: TCCbuilderApp/src/lahde/tccbuilder/public/TCCMaterialLibrary/100001-Inox/data

Note: src/lahde/tccbuilder/public/TCCMaterialLibrary/100001-Inox/data/info.txt
100001,Inox,1450.0

Note: src/lahde/tccbuilder/public/TCCMaterialLibrary/100001-Inox/data/Ranges.txt
{
  "density": "155-1274",
  "specificHeatCapacity": "150-1262",
  "thermalConductivity": "5-1273",
  "emissivity": ""
}

Note: src/lahde/tccbuilder/public/TCCMaterialLibrary/100001-Inox/data/Specific heat capacity.txt
Data from https://www.engineeringtoolbox.com/stainless-steel-310-properties-d_2167.html (10. 7. 2023)

Temperature (K)	Specific heat capacity (J/kg/K)
150.1363	382.5711
159.5216	398.1507
170.5618	412.2323
183.6044	425.4282
209.1719	444.6671
233.5831	458.3412
258.2628	471.0321
280.3734	478.7337
316.0903	489.2641
339.5202	495.0368
369.4007	501.4383
397.5207	507.8244
423.3025	513.0288
447.2221	516.2153
471.3813	518.7891
500.0233	522.7607
527.424	526.7912
554.6222	530.9968
581.1927	535.4069
605.814	538.9106
634.3399	543.4331
663.2607	547.5018
690.6217	550.8907
721.7723	555.7035
759.7952	560.837
794.1899	565.3565
818.6432	570.3348
845.0658	580.3027
872.1109	590.724
902.5342	598.0002
928.1033	601.8112
957.8094	605.5165
983.6124	608.0215
1028.1837	612.0142
1055.8588	615.2668
1081.1864	618.5206
1106.7477	621.9104
1132.9296	625.9804
1159.4975	630.7308
1187.6197	636.8414
1213.9732	643.9738
1238.5021	648.5794
1261.4375	653.2505

Note: src/lahde/tccbuilder/public/TCCMaterialLibrary/README.md
# TCCMaterialLibrary

When adding a material, first read Material classification.docx.
Make a folder for the material named with its ID and short name (see Material classification.xlsx for ID creation).
Create two subfolders: appInfo and data.
Input all the necessary files (in right format) in the folders (see Material classification.docx).
Add the material to the Material classification.xlsx tables.
Add the flags of the material to materials_flags.csv.

File: Thermal conductivity.txt
Data is combined from https://www.engineeringtoolbox.com/stainless-steel-310-properties-d_2167.html (10. 7. 2023)
and from
@book{hust1975thermal,
  title={Thermal Conductivity and Electrical Resistivity Standard Reference Materials: Austenitic Stainless Steel, SRM's 735 and 798, from 4 to 1200 K; Standard Reference Materials},
  author={Hust, J.G. and Giarratano, P.J.},
  url={https://books.google.si/books?id=tg50wwEACAAJ},
  year={1975}
}

RANGE:5-1273 K

Temperature(K)	Thermal conductivity (W/m/K)
5.0000	0.4660
6.0000	0.5650
7.0000	0.6760
8.0000	0.7960
9.0000	0.9210
10.0000	1.0500
12.0000	1.3200
14.0000	1.5800
16.0000	1.8600
18.0000	2.1300
20.0000	2.4000
25.0000	3.0700
30.0000	3.7200
35.0000	4.3400
40.0000	4.9200
45.0000	5.4700
50.0000	5.9800
55.0000	6.4500
56.6845	6.7623
74.8663	7.5820
90.9091	8.3197
108.0214	8.9344
124.0642	9.5492
146.5241	10.0410
168.9840	10.6557
190.3743	11.1885
214.9733	11.6393
233.1551	12.1311
258.8235	12.5410
281.2834	12.9918
302.6738	13.3607
326.2032	13.8115
357.2193	14.2623
383.9572	14.8361
406.4171	15.0820
428.8770	15.4508
457.7540	15.8197
483.4225	16.2295
510.1604	16.5574
531.5508	16.8033
573.1500	17.3000
623.1500	18.0000
673.1500	18.8000
723.1500	19.4000
773.1500	20.1000
823.1500	20.9000
873.1500	22.2000
923.1500	23.0000
973.1500	23.7000
1023.15	24.0000
1073.15	24.5000
1123.15	25.2000
1173.15	26.0000
1223.15	26.9000
1273.15	27.7000