Folder: TCCbuilderApp/src/lahde/tccbuilder/public/TCCMaterialLibrary/110026-NiTi/data

Note: src/lahde/tccbuilder/public/TCCMaterialLibrary/110026-NiTi/data/M-A transformation temperature.txt
Data from Goodson 2008 (10.1115/1.2945904)
M-A transformation temperature is around 273 K

273

Note: src/lahde/tccbuilder/public/TCCMaterialLibrary/110026-NiTi/data/material.txt
Thin film NiTi, thickness 1.7 um 
From Goodson 2008 (10.1115/1.2945904)

Note: src/lahde/tccbuilder/public/TCCMaterialLibrary/110026-NiTi/data/Specific heat capacity.txt
Data from Goodson 2008 (10.1115/1.2945904)
Temperature(K)	Heat capacity(J/kg/K)

243.7	273.66
250.02	289.18
253.72	300.06
258.53	307.91
263.6	320.51
268.27	329.86
272.94	339.09
278.02	356.06
282.89	356.93
288.1	363.04
291.96	359.8
298.12	364.04
303.2	365.29

Note: src/lahde/tccbuilder/public/TCCMaterialLibrary/README.md
# TCCMaterialLibrary

When adding a material, first read Material classification.docx.
Make a folder for the material named with its ID and short name (see Material classification.xlsx for ID creation).
Create two subfolders: appInfo and data.
Input all the necessary files (in right format) in the folders (see Material classification.docx).
Add the material to the Material classification.xlsx tables.
Add the flags of the material to materials_flags.csv.

File: Thermal conductivity.txt
Data from Goodson 2008 (10.1115/1.29459)
Temperature(K)	Thermal conductivity(W/m/K)

239.486	4.85625
242.793	4.85625
247.118	4.95721
252.459	5.05817
257.42	5.1137
262.762	5.08173
267.976	5.22139
272.682	5.25505
278.024	5.36106
282.73	5.3863
287.563	5.44183
291.251	5.50072
296.593	5.52933
303.334	5.58149