Folder: TCCbuilderApp/src/lahde/tccbuilder/public/TCCMaterialLibrary/310001-P(VDF_TrFE)/data

Note: src/lahde/tccbuilder/public/TCCMaterialLibrary/310001-P(VDF_TrFE)/data/Dielectric const-T- at 1 kHz.txt
Data From: Large Electrocaloric Effect in Ferroelectric Polymers Near Room Temperature. Bret Neese, Baojin Chu, Sheng-Guo Lu, Yong Wang, E. Furman, Q. M. Zhang. SCIENCE VOL 321 8 AUGUST 2008. DOI: 10.1126/science.1159655. Fig 1(a) The dielectric constant (K) of P(VDF-TrFE) 55/45 mol % copolymer films as a function of temperature measured at frequencies of 1, 10, and 100 kHz.
@ 1 kHz

IMPORTNAT NOTE: In this paper they dont mention it, but in the thesis on Neese, it says that a totaly different sample, thickness of 9 microns made by solution casting from DMF at 70-80 degrees C with simillar annealing, has been used for DSC and determinning the 
		Owing to the nature of the graph and the overlaps in it, it was not possible to exactly pin point all the data points, therefore, small errors should be expected. The data in the thesis was not much better.


T (degrees C)	K

20.8292	15.02
22.0591	15.74
24.4175	16.08
27.2958	17.32
32.5832	19.16
37.8706	21.35
43.0058	23.46
48.1791	26.10
51.3617	27.95
55.3177	30.83
56.2941	31.81
57.5240	32.85
58.2974	34.26
59.4767	35.75
60.4023	37.68
61.5815	40.13
62.5071	43.47
63.5341	48.31
64.5105	55.16
65.5882	63.14
66.6660	68.93
67.6930	71.49
68.7201	72.27
69.6457	72.27
70.6094	72.10
71.8012	71.58
72.6634	70.86
73.7919	70.34
74.9331	69.37
75.9601	68.50
77.0379	67.89
78.1664	66.74
79.1427	65.96
80.2712	65.16
81.2349	64.38
82.4267	63.23
84.2653	61.47
86.4208	59.80
88.5256	58.05
90.4276	56.38
92.4817	54.79
94.4343	53.58
96.5899	52.00
98.5933	50.76
99.8232	49.72

Note: src/lahde/tccbuilder/public/TCCMaterialLibrary/310001-P(VDF_TrFE)/data/Dielectric const-T- at 10 kHz.txt
Data From: Large Electrocaloric Effect in Ferroelectric Polymers Near Room Temperature. Bret Neese, Baojin Chu, Sheng-Guo Lu, Yong Wang, E. Furman, Q. M. Zhang. SCIENCE VOL 321 8 AUGUST 2008. DOI: 10.1126/science.1159655. Fig 1(a) The dielectric constant (K) of P(VDF-TrFE) 55/45 mol % copolymer films as a function of temperature measured at frequencies of 1, 10, and 100 kHz.
@ 10 kHz

IMPORTNAT NOTE: In this paper they dont mention it, but in the thesis on Neese, it says that a totaly different sample, thickness of 9 microns made by solution casting from DMF at 70-80 degrees C with simillar annealing, has been used for DSC and determinning the 
		Owing to the nature of the graph and the overlaps in it, it was not possible to exactly pin point all the data points, therefore, small errors should be expected. The data in the thesis was not much better.


T (degrees C)	K

21.2857	14.50
23.2890	15.02
25.3939	15.48
27.4987	16.08
29.5021	16.60
32.6846	17.49
35.7151	18.90
38.8469	20.38
41.9154	21.61
46.9999	24.15
50.2332	25.73
52.2366	27.14
54.3414	28.73
56.3955	30.22
58.3989	32.50
60.4023	35.75
61.5307	38.12
62.6085	41.02
63.4834	45.06
64.5612	51.02
65.5375	58.39
66.7674	63.66
67.6930	66.48
68.7708	67.52
69.7471	67.89
70.6727	68.15
71.6364	67.72
72.7776	67.26
73.7919	66.74
74.9838	66.31
75.9601	65.59
77.0379	64.81
78.1664	64.12
78.9779	63.40
80.1571	62.53
81.1841	61.82
82.2112	60.86
83.2382	60.06
84.2653	59.37
85.3431	58.57
86.4208	57.87
87.2957	57.18
88.4242	56.46
89.4005	55.68
90.3261	54.71
91.3532	54.01
92.4310	53.58
93.4580	52.60
94.4343	51.82
95.5628	51.02
96.5899	50.41
97.6676	49.52
98.5933	48.74
99.6710	48.14

Note: src/lahde/tccbuilder/public/TCCMaterialLibrary/310001-P(VDF_TrFE)/data/dS Iso-T-Direct measure-at 10 Elec Field.txt
ta from: Electrocaloric Effect in Ferroelectric P(VDF-TrFE) Copolymers. S. G. LU, B. ROZIC, Z. KUTNJIAK and Q. M. ZHANG.Integrated Ferroelectrics, 125:176–185, 2011. DOI: 10.1080/10584587.2011.574491. Fig 6 (a) Directly measured delta S as a function of temperature under several electric fields for unstretched P(VDF-TrFE) 55/45 mol% copolymers.
@10 MV/m Electric Field

IMPORTANT NOTE: 
1-The material is probably the free-standing films fabricated using a solution cast method. Thickness in the range of 4 µm to 6 µm. 
2- The electric field for the "indirect data from Science" is not clearly mentioned here, however, in Fig 6 (b), which is the adiabatic temperature changes, it corresponds tor 134 MV / m field. Perhaps the same is true here as well.
3-I think the variations in ds is not that meaningful, it is within the errors of digitization, maybe we can consider it 0 if it makes physical sense 

T (deg C)	ds(J/(kgK))
													
28.5929	-0.05
42.126	-0.05
50.6892	-0.05
60.4695	-0.05
70.5541	0.12
80.5662	0.06
90.5784	0.06

Note: src/lahde/tccbuilder/public/TCCMaterialLibrary/310001-P(VDF_TrFE)/data/Emissivity.txt
As I didn't find any data on emissivity of P(VDF-TrFE),
I wrote the value 0.5 as RT value.

Note: src/lahde/tccbuilder/public/TCCMaterialLibrary/310001-P(VDF_TrFE)/data/Fields.txt
41
83
94
120
134
150
163
290

Note: src/lahde/tccbuilder/public/TCCMaterialLibrary/310001-P(VDF_TrFE)/data/Material.txt
1-Films for indirect ECE measurement: Spin casting method on metalized glass substrates, thickness 0.4 µm to 1 µm

2-The free-standing films for direct ECE measurement: Solution casting method, thickness 4 µm to 6 µm

3- from the thesis, samples for DSC and dielectric measurements is 9 microns thick film prepared by solution casting from DMF at 70-80 degrees C and annealed under the same conditions

if 1 and 2 are the same as the thesis then:
P(VDF-TrFE) (55/45 mol %) bought from Solvay (more details in teh thesis)

Melting point obtained from:
Devi Eka Septiyani Arifin and J J Ruan 2018 IOP Conf. Ser.: Mater. Sci. Eng. 299 012056
DOI 10.1088/1757-899X/299/1/012056

Note: src/lahde/tccbuilder/public/TCCMaterialLibrary/310001-P(VDF_TrFE)/data/Note about the calculated values.txt
According to my discussion with Prof. Kitanovski on Feb 17th, considering the fact the calulated values in the 
Integrated Ferroelectrics reference are far off the indirect and direct measurements, they were disregarded here

Note: src/lahde/tccbuilder/public/TCCMaterialLibrary/310001-P(VDF_TrFE)/data/Ranges.txt
{
  "density": "290-300",
  "specificHeatCapacity": "313-392",
  "thermalConductivity": "290-300",
  "adiabaticTemperatureChange": "301-384",
  "emissivity": ""
}

Note: src/lahde/tccbuilder/public/TCCMaterialLibrary/310001-P(VDF_TrFE)/data/RT_properties.txt
{
  "density": 2067.0,
  "specificHeatCapacity": 1412.76,
  "thermalConductivity": 0.3193,
  "emissivity": 0.5
}

Note: src/lahde/tccbuilder/public/TCCMaterialLibrary/310001-P(VDF_TrFE)/data/Specific heat capacity.txt
Data form: Supporting Online Material for "Large Electrocaloric Effect in Ferroelectric Polymers Near Room Temperature". Bret Neese, Baojin Chu, Sheng-Guo Lu, Yong Wang, E. Furman, Q. M. Zhang. Science 321, 821 (2008). DOI: 10.1126/science.1159655. Figure S2. Specific heat for (A) the P(VDF-TrFE) 55/45 mol% copolymer.

Importnat note: I digitized this one and the one in the thesis and they are perfect matches, here in the science paper it is not mentioned anything, but in the thesis they say data of DSC and dielectric measurements come from samples of different thickness that are fabricated with a different method
		In the paper for the terpolymer they sho a linear curve but in the thesis, the complete DSC exists
A (X)			B (Y)	
	
T (K)			Cp (J/(kgK))	
			
313.49	1413.76
315.39	1425.66
321.92	1518.5
326.19	1597.05
329.5	1675.61
332.35	1808.91
333.21	1873.19
334.06	1939.84
334.72	2006.49
335.38	2070.76
336.24	2137.42
336.91	2163.6
337.37	2189.79
337.85	2215.97
338.32	2189.79
338.98	2123.13
338.98	2123.13
339.46	2058.86
339.93	2032.68
340.41	2006.49
340.89	1939.84
341.54	1913.65
342.02	1887.47
342.69	1861.28
343.15	1835.1
343.82	1808.91
344.49	1808.91
345.14	1782.73
346.29	1756.54
348.55	1730.36
348.55	1730.36
351.02	1701.79
354.35	1675.61
358.33	1649.42
362.59	1649.42
365.23	1649.42
368.18	1649.42
370.45	1649.42
372.44	1649.42
374.91	1649.42
377.19	1649.42
383.26	1675.61
391.5	1701.79

Note: src/lahde/tccbuilder/public/TCCMaterialLibrary/310001-P(VDF_TrFE)/data/Themal conductivity and density.txt
material and fabrication method are different, moreover we only have one reference for thermal conductivity and the data points are not enough for 
interpolating anything meaningful, at least I would not suggest doing that

Note: src/lahde/tccbuilder/public/TCCMaterialLibrary/310001-P(VDF_TrFE)/data/Thermal conductivity.txt
Data from C.Y. Iguchi et al. / Polymer Testing 26 (2007) 788–792 (10.1016/j.polymertesting.2007.04.009)
This is an estimation - the thermal conductivity is for a similar material.
Thermal conductivity (W/m/K)

0.3193

Note: src/lahde/tccbuilder/public/TCCMaterialLibrary/README.md
# TCCMaterialLibrary

When adding a material, first read Material classification.docx.
Make a folder for the material named with its ID and short name (see Material classification.xlsx for ID creation).
Create two subfolders: appInfo and data.
Input all the necessary files (in right format) in the folders (see Material classification.docx).
Add the material to the Material classification.xlsx tables.
Add the flags of the material to materials_flags.csv.

File: Dielectric const-T- at 100 kHz.txt
Data From: Large Electrocaloric Effect in Ferroelectric Polymers Near Room Temperature. Bret Neese, Baojin Chu, Sheng-Guo Lu, Yong Wang, E. Furman, Q. M. Zhang. SCIENCE VOL 321 8 AUGUST 2008. DOI: 10.1126/science.1159655. Fig 1(a) The dielectric constant (K) of P(VDF-TrFE) 55/45 mol % copolymer films as a function of temperature measured at frequencies of 1, 10, and 100 kHz.

@ 100 kHz

IMPORTNAT NOTE: In this paper they dont mention it, but in the thesis on Neese, it says that a totaly different sample, thickness of 9 microns made by solution casting from DMF at 70-80 degrees C with simillar annealing, has been used for DSC and determinning the
		Owing to the nature of the graph and the overlaps in it, it was not possible to exactly pin point all the data points, therefore, small errors should be expected. The data in the thesis was not much better.

T (degrees C)	K

20.3601	11.42
21.1335	11.70
22.2113	11.96
23.2383	12.48
26.4209	13.00
28.4750	13.63
30.5798	14.50
32.5832	15.11
34.6373	15.91
36.6914	16.86
38.8469	17.84
40.8376	18.62
42.7903	19.68
44.8951	20.55
45.8714	21.09
48.0270	22.05
50.1825	23.63
52.2366	24.69
54.2907	25.99
56.3955	27.86
57.3211	28.81
58.3989	29.96
59.5781	31.35
60.3515	32.76
61.5815	34.95
62.5578	37.51
63.6356	41.02
64.6119	46.29
65.5882	52.34
66.7167	57.18
67.6423	59.98
68.8215	61.21
69.6457	62.17
70.5586	62.45
71.6998	62.71
72.7776	62.53
73.7919	62.36
74.8824	62.27
75.9601	61.65
76.9745	61.13
78.1157	60.78
78.9779	60.06
80.1064	59.46
81.0320	58.93
82.2619	58.13
83.2890	57.53
84.3667	56.83
85.3938	56.12
86.3701	55.34
87.2957	54.62
88.3735	53.93
89.3498	53.23
90.4276	52.52
91.3025	51.74
92.3295	51.11
93.5087	50.41
94.5358	49.52
95.4107	49.00
96.4884	48.22
97.6676	47.51
98.5933	46.73
99.6203	46.12