Folder: TCCbuilderApp/src/lahde/tccbuilder/public/TCCMaterialLibrary/100008-Sn/data

Note: src/lahde/tccbuilder/public/TCCMaterialLibrary/100008-Sn/data/Density.txt
Data is averaged from all the data from NIST web application (https://trc.nist.gov/MetalsAlloyUI/).
Temperature (K)	Density (kg/m^3)

276.05	7321
354.48	7266.11
419.83	7238.66
472.11	7202.07
495.64	7131.93
516.56	7040.45
534.86	6976.41
600.21	6927.62
707.39	6866.64
777.98	6820.89
864.25	6775.15
958.36	6701.97
1055.09	6647.08
1118.35	6587.19
1231.28	6521.32
1310.34	6468.63
1411.98	6407.15
1509.86	6350.06
1588.91	6301.76
1716.9	6218.33
1826.07	6161.25
1950.3	6064.64
2089.59	5994.38
2206.28	5941.69
2405.8	5871.43
2548.85	5735.3
2669.32	5691.39
2737.08	5625.52

Note: src/lahde/tccbuilder/public/TCCMaterialLibrary/100008-Sn/data/material.txt
Elementary tin (Sn)

Emissivity taken from https://www.flukeprocessinstruments.com/en-us/service-and-support/knowledge-center/infrared-technology/emissivity-metals (02/01/24)

Note: src/lahde/tccbuilder/public/TCCMaterialLibrary/100008-Sn/data/Molar mass.txt
Data from https://webbook.nist.gov/cgi/cbook.cgi?Name=tin&Units=SI

Molar mass (g/mol)

118.710

Note: src/lahde/tccbuilder/public/TCCMaterialLibrary/100008-Sn/data/Specific heat capacity.txt
Data is averaged from all the data from NIST web application (https://trc.nist.gov/MetalsAlloyUI/).
Temperature (K)	Specific heat capacity (J/kg/K)

0.0	0.0
2.44	0.83
6.72	1.65
8.86	4.13
10.7	8.81
12.83	15.97
16.2	24.5
18.33	32.21
22	39.37
24.45	47.9
27.5	55.33
31.17	66.07
40.24	87.96
47.63	106.52
56.61	124.12
66.64	140.29
76.67	155.04
87.23	166.45
99.9	178.35
115.22	187.86
133.7	197.37
157.99	206.89
182.28	213.07
201.82	215.93
226.1	218.78
246.17	221.64
267.29	224.49
285.24	225.44
300.56	228.77
321.15	230.67
342.27	234
356	236.38
373.43	238.28
391.38	239.71
407.75	243.04
417.78	244.94
432.04	246.85
455.45	249.72
466.67	249.72
480.3	252.44
488.48	254.26
494.55	262.44
494.85	1154.81
499.39	1161.17
501.21	1163.9
512.12	1134.82
517.27	249.72
527.58	242.45
543.03	242.45
555.15	244.27
566.97	244.27
578.48	243.36
580.5	242.33
633.42	238.96
689.12	234.47
751.33	226.82
815.38	220.08
875.73	213.34
923.08	209.97
1157.64	239.69
1255.82	232.69
1348.23	228.5
1429.08	228.5
1515.71	229.9
1588.86	229.9
1729.4	227.57
1816.02	224.77
1908.43	229.43
1983.51	225.7

Note: src/lahde/tccbuilder/public/TCCMaterialLibrary/README.md
# TCCMaterialLibrary

When adding a material, first read Material classification.docx.
Make a folder for the material named with its ID and short name (see Material classification.xlsx for ID creation).
Create two subfolders: appInfo and data.
Input all the necessary files (in right format) in the folders (see Material classification.docx).
Add the material to the Material classification.xlsx tables.
Add the flags of the material to materials_flags.csv.

File: Thermal conductivity.txt
Data is averaged from all the data from NIST web application (https://trc.nist.gov/MetalsAlloyUI/).
Temperature (K)	Thermal conductivity (W/m/K)

0	9.2
0.3	50.61
1.8	184.05
2.1	280.67
2.69	375.77
3.59	460.12
2.69	569.02
3.29	720.86
3.89	1180.98
7.49	1104.29
10.78	875.77
11.68	766.87
12.57	671.78
13.77	587.42
14.97	535.28
16.17	414.11
17.07	377.3
17.37	300.61
20.66	231.6
27.54	159.51
34.73	127.3
43.11	104.29
52.99	90.49
62.87	85.89
74.85	79.75
84.13	79.75
273.35	62.88
288.65	62.91
342.89	60.43
385.91	60.43
443.89	57.95
477.56	57.12
498.13	56.29
505.61	28.97
539.28	30.63
572.94	29.8
617.83	31.46
672.07	33.11
718.83	33.11
780.55	33.11
834.79	33.94
903.99	33.94
985.16	30.56
1090.2	29.37
1276.03	35.33
1381.07	40.1
1472.64	35.33
1572.29	50.83
1674.64	53.21
1779.68	56.79
1865.86	60.36
1973.59	60.36
2073.24	63.94
2170.2	65.13