Folder: TCCbuilderApp/src/lahde/tccbuilder/public/TCCMaterialLibrary/100013-Ni/data

Note: src/lahde/tccbuilder/public/TCCMaterialLibrary/100013-Ni/data/Material.txt
Elementary nickel (Ni)

Melting point 1726 K, source:
https://www.lesker.com/newweb/deposition_materials/deposition-materials-notes.cfm?pgid=ni4#:~:text=Nickel%20is%20a%20hard%2C%20lustrous,Torr%20at%201%2C180%C2%B0C. (13/12/2023)

Emissivity source:
\cite{article} doi = {10.1134/S0018151X16040027}

Note: src/lahde/tccbuilder/public/TCCMaterialLibrary/100013-Ni/data/Specific heat capacity.txt
Data is averaged from all the data from NIST web application (https://trc.nist.gov/MetalsAlloyUI/).
Calculated with atomic weight 58.6934 u.
Temperature(K)	Specific heat capacity(J/kg/K)

9.03	0.75
40.07	29.59
66.68	109.85
88.85	199.52
128.76	282.91
162.02	338.71
181.97	366.93
210.80	394.52
252.93	418.97
297.27	441.54
343.83	462.86
392.61	479.79
443.61	500.48
481.30	517.41
521.21	534.34
552.26	555.66
574.43	578.86
623.21	718.05
636.51	571.33
638.73	552.52
665.34	536.85
703.03	525.56
754.03	523.68
802.81	528.70
856.02	534.34
911.45	540.61
960.23	548.13
1011.23	555.66
1133.18	566.94
1181.96	576.98
1268.43	587.64
1370.42	605.19
1485.72	619.61
1594.37	637.80
1683.06	659.74
1785.05	690.47
2006.78	758.81
2193.03	758.81
2399.23	758.81
2592.13	760.69
3006.76	758.81
3403.65	760.69
3997.87	758.81

Note: src/lahde/tccbuilder/public/TCCMaterialLibrary/README.md
# TCCMaterialLibrary

When adding a material, first read Material classification.docx.
Make a folder for the material named with its ID and short name (see Material classification.xlsx for ID creation).
Create two subfolders: appInfo and data.
Input all the necessary files (in right format) in the folders (see Material classification.docx).
Add the material to the Material classification.xlsx tables.
Add the flags of the material to materials_flags.csv.

File: Thermal conductivity.txt
Data is averaged from all the data from NIST web application (https://trc.nist.gov/MetalsAlloyUI/).
Temperature(K)	Thermal conductivity(W/m/K)

3.70	11.04
7.40	147.19
11.10	342.96
28.36	392.27
59.19	278.93
64.12	234.04
78.91	189.88
110.97	147.19
181.26	103.77
247.84	91.26
336.62	76.54
408.14	69.92
491.99	60.35
586.93	58.88
676.94	56.67
803.58	48.71
944.21	51.25
1050.74	42.35
1144.49	46.17
1272.34	47.44
1361.82	52.52
1489.67	55.07
1615.38	56.34
1709.13	55.07
1822.06	55.07
1969.08	55.07