Folder: TCCbuilderApp/src/lahde/tccbuilder/public/TCCMaterialLibrary/100002-Gd/data

Note: src/lahde/tccbuilder/public/TCCMaterialLibrary/100002-Gd/data/emissivity_source.txt
Data from @misc{etde_5447788,
title = {Anomaly of the emissivity and of the absorptivity of gadolinium metal at the Curie temperature}
author = {Giulietti, D, Lucchesi, M, Del Frate, R, and Consiglio Nazionale delle Ricerche, Pisa (Italy). Lab. di Fisica Atomica e Moleculare)}
abstractNote = {In the present work we investigate the integral emissivity and the spectral absorptivity, of gadolinium metal near its Curie temperature with the aim of obtaining formation about the process of anelastic scattering of conduction electrons by magnetization fluctuations.}
doi = {10.1007/BF02815980}
journal = []
volume = {38:6}
journal type = {AC}
place = {Italy}
year = {1983}
month = {Oct}
}

Temperature (K)	Emissivity (/)
242.7500	0.2204
260.0139	0.2234
279.1111	0.232
284.3056	0.2457
288.1250	0.2715
289.1944	0.2932
289.8056	0.3084
290.4167	0.314
290.7222	0.3293
291.9444	0.3474
292.2500	0.3117
293.6250	0.2836
294.8472	0.2579
297.9028	0.2419
303.4028	0.2307
321.2778	0.2341
343.2778	0.2207

Note: src/lahde/tccbuilder/public/TCCMaterialLibrary/100002-Gd/data/Ranges.txt
{
  "density": "0-326",
  "specificHeatCapacity": "0-326",
  "thermalConductivity": "0-326",
  "adiabaticTemperatureChange": "0-326",
  "emissivity": "242-344"
}

Note: src/lahde/tccbuilder/public/TCCMaterialLibrary/100002-Gd/data/RT_properties.txt
{
  "density": 7886.1,
  "specificHeatCapacity": 197.3,
  "thermalConductivity": 10.8,
  "emissivity": 0.35
}

Note: src/lahde/tccbuilder/public/TCCMaterialLibrary/README.md
# TCCMaterialLibrary

When adding a material, first read Material classification.docx.
Make a folder for the material named with its ID and short name (see Material classification.xlsx for ID creation).
Create two subfolders: appInfo and data.
Input all the necessary files (in right format) in the folders (see Material classification.docx).
Add the material to the Material classification.xlsx tables.
Add the flags of the material to materials_flags.csv.

File: Thermal conductivity.txt
Data from NIST on 21. 1. 2022
https://trc.nist.gov/MetalsAlloyUI/
Temperature(K)	Thermal conductivity(W/m/K)

1.7	3.52
2.52	5.06
3.89	6.59
5.26	8.23
6.63	10.35
7.45	12.34
8.82	13.55
10.19	15.68
11.01	17.54
12.65	19.39
14.3	20.9
16.49	22.22
19.77	23.08
23.33	23.06
26.89	22.83
29.91	22.25
32.92	21.57
35.93	20.74
38.12	19.72
41.68	18.86
45.52	18.09
50.45	17.49
55.65	16.79
62.5	16.19
69.07	15.63
76.74	15.08
83.58	14.64
92.07	14.31
99.74	13.94
110.15	13.59
120.01	13.2
129.32	12.87
138.36	12.69
146.57	12.34
157.25	12.09
167.39	11.88
181.08	11.62
196.96	11.27
209.29	11.06
222.98	10.83
234.76	10.67
244.89	10.58
254.75	10.58
265.7	10.58
274.47	10.6
282.68	10.65
290.9	10.76
298.84	10.97
306.78	11.18
314.45	11.27
325.41	11.6