Folder: TCCbuilderApp/src/lahde/tccbuilder/public/TCCMaterialLibrary/200013-PbTiO3/data

Note: src/lahde/tccbuilder/public/TCCMaterialLibrary/200013-PbTiO3/data/Density.txt
Source: CRC handbook of Chemistry and Physics, page 4-69
Density (kg/m3)

7900

Note: src/lahde/tccbuilder/public/TCCMaterialLibrary/200013-PbTiO3/data/Material.txt
Source: CRC handbook of Chemistry and Physics, page 4-69
 
Material: PbTiO3 (Lead (II) Titanate) - Tetragonal - CAS: 12060-00-3
Density: 7900 Kg/m3 (original value: 7.9 g cm-3) 
Molecular weight 303.1 g/mol (used for Cp conversion later on)



Other references:

American Institute of Physics Handbook, 3rd Ed., Coordinating editor: Dwight E. Gray, ISBN: 07-001485-X.
CODATA Key Values For Thermodynamics, Final Report of the CODATA Task Group on Key Values for Thermodynamics, ISBN: 0-89116-758-7.
Smithsonian Physical Tables, 9th revised Ed, prepared by William Elmer Forsythe.
NIST-JANAF Thermomechanical Tables, 4th Ed., Malcolm W. Chase, Jr.
Themodynamic Properties of Minerals and Related Substances , U.S. Geological Survey Bulletin 1452.
Thermomechanical Data of Pure Substances, Ihsan Barin, 3rd Ed., ISBN: 3-527-28745-0.
Thermomechanical Properties of Inorganic Substances, Ihsn Barin et al, Supplement, ISBN: 978-3-662-02295-5, DOI: 10.1007/978-3-662-02293-1.

Note: src/lahde/tccbuilder/public/TCCMaterialLibrary/200013-PbTiO3/data/Melting point.txt
Thermomechanical Data of Pure Substances - Ihsan Barin - Page 1303
Melting point (K)

1559

Note: src/lahde/tccbuilder/public/TCCMaterialLibrary/200013-PbTiO3/data/Specific heat capacity.txt
Cp data is from Thermomechanical Data of Pure Substances - Ihsan Barin - Page 1303
J/mol K is converted to J/KgK using 303.1 g/mol molecular Wt. from CRC handbook of Chemistry and Physics.

Note: looks like there are changes/transformations in this temperature range (at 763 K)

Original data
Temperature (K)	Specific heat capacity (J/mol/K)

298.15	104.402	SOL-A
300	104.686
400	115.325
500	121.21
600	125.226
700	128.358
763	130.074
	
763	124.183	SOL-B
800	125.234
900	127.952
1000	130.545
1100	133.057
1200	135.513
1300	137.931
1400	140.32
1500	142.688
1559	144.077



Converted data
Temperature (K)	Specific heat capacity (J/kg/K)

298.15	344.4473771
300	345.3843616
400	380.4849885
500	399.9010228
600	413.1507753
700	423.4839987
763	429.1454965
	
763	409.7096668
800	413.1771693
900	422.1445068
1000	430.6994391
1100	438.987133
1200	447.0900693
1300	455.0676344
1400	462.9495216
1500	470.7621247
1559	475.3447707

Note: src/lahde/tccbuilder/public/TCCMaterialLibrary/README.md
# TCCMaterialLibrary

When adding a material, first read Material classification.docx.
Make a folder for the material named with its ID and short name (see Material classification.xlsx for ID creation).
Create two subfolders: appInfo and data.
Input all the necessary files (in right format) in the folders (see Material classification.docx).
Add the material to the Material classification.xlsx tables.
Add the flags of the material to materials_flags.csv.

File: Thermal conductivity.txt
From Tachibana 2008 (http://dx.doi.org/10.1063/1.29781)

Temperature (K)	Thermal conductivity (W/m/K)

1.9792	0.21
2.1327	0.24
2.2201	0.26
2.2881	0.26
2.4373	0.29
2.4233	0.32
2.6149	0.32
2.7694	0.34
2.9038	0.38
3.1109	0.42
3.3956	0.47
3.5963	0.51
3.7925	0.56
4.0630	0.61
4.3842	0.66
4.5904	0.70
4.7855	0.74
5.0105	0.80
5.2460	0.85
5.5640	0.90
5.8256	0.95
6.1788	1.02
6.4322	1.07
6.6577	1.11
6.7831	1.16
7.0613	1.22
7.4786	1.31
7.9320	1.40
8.2101	1.48
8.7078	1.59
9.2224	1.71
9.7816	1.83
10.3597	1.92
10.9720	2.06
11.6371	2.22
12.0451	2.31
12.4852	2.42
12.9973	2.52
13.7655	2.69
14.6000	2.81
15.4629	3.09
16.6853	3.32
17.6714	3.57
18.7428	3.84
20.1955	4.13
21.4198	4.44
23.5147	4.88
24.9045	5.09
26.4144	5.48
28.4616	5.89
30.7116	6.34
32.5268	6.62
33.7154	6.91
35.0982	7.21
36.3285	7.54
38.5309	7.87
40.8082	8.21
42.2387	8.59
44.7994	8.97
47.4472	9.36
49.1810	9.56
52.0877	10.00
55.2455	10.22
58.5107	10.44
62.0579	10.67
64.6032	10.67
69.6103	10.67
73.8304	10.67
78.1940	10.44
84.3756	10.22
91.0458	10.00
98.1024	9.56
104.0499	9.36
116.2111	8.71
132.8095	8.10
145.5896	7.54
159.8288	7.00
175.4607	6.66
189.3316	6.38
204.0059	6.10
220.1335	5.81
241.6633	5.56
264.9183	5.32
285.8612	5.20
319.2724	4.95
350.4985	4.74
377.6643	4.53